Folder: optionSpreadAnalyzer/csv/daily

Note: README.md
# optionSpreadAnalyzer
a program to analyze the potential outcomes of advanced options spreads, particularly double ITM verticals

File: TGA_1431522171544.csv
uri:/instrument/1.0/TGA/chartdata;type=quote;range=1d/csv
ticker:tga
Company-Name:Transglobe Energy Corp
Exchange-Name:NMS
unit:MIN
timezone:EDT
currency:USD
gmtoffset:-14400
previous_close:4.0700
Timestamp:1431437400,1431460800
labels:1431439200,1431442800,1431446400,1431450000,1431453600,1431457200,1431460800
values:Timestamp,close,high,low,open,volume
close:4.0650,4.2300
high:4.0650,4.2300
low:4.0600,4.2300
open:4.0650,4.2300
volume:0,7400
1431437663,4.1400,4.1400,4.1400,4.1400,7400
1431437801,4.1400,4.1400,4.1400,4.1400,500
1431437931,4.1600,4.1600,4.1560,4.1560,3400
1431437940,4.1500,4.1600,4.1500,4.1600,400
1431438170,4.1800,4.1800,4.1700,4.1700,800
1431438198,4.1900,4.1900,4.1900,4.1900,100
1431438286,4.1832,4.1832,4.1800,4.1801,2100
1431438316,4.1800,4.1800,4.1700,4.1800,1400
1431438364,4.1850,4.1850,4.1800,4.1800,600
1431438561,4.1800,4.1800,4.1800,4.1800,2200
1431438638,4.1800,4.1800,4.1600,4.1800,2200
1431438691,4.1550,4.1700,4.1500,4.1700,700
1431439164,4.1600,4.1600,4.1600,4.1600,100
1431439214,4.1800,4.1800,4.1600,4.1601,2300
1431439594,4.1800,4.1800,4.1800,4.1800,100
1431439668,4.1800,4.1800,4.1750,4.1800,2600
1431439717,4.1800,4.1800,4.1800,4.1800,600
1431439764,4.1900,4.1900,4.1900,4.1900,200
1431439849,4.1850,4.1850,4.1850,4.1850,100
1431440014,4.1900,4.1900,4.1900,4.1900,100
1431440172,4.2000,4.2000,4.1900,4.1900,200
1431440285,4.1950,4.1950,4.1950,4.1950,100
1431440344,4.2000,4.2000,4.2000,4.2000,100
1431440458,4.1900,4.2000,4.1900,4.2000,200
1431440460,4.1950,4.1950,4.1950,4.1950,200
1431440870,4.2000,4.2000,4.2000,4.2000,100
1431440951,4.2000,4.2000,4.2000,4.2000,200
1431441232,4.1950,4.1950,4.1950,4.1950,100
1431441418,4.1910,4.2000,4.1910,4.2000,600
1431441466,4.1850,4.1900,4.1800,4.1900,2900
1431441494,4.1900,4.1900,4.1900,4.1900,100
1431441696,4.1900,4.1900,4.1900,4.1900,300
1431441869,4.1801,4.1801,4.1800,4.1800,300
1431442003,4.1900,4.1900,4.1900,4.1900,200
1431442206,4.1900,4.1900,4.1900,4.1900,100
1431442296,4.1900,4.1900,4.1900,4.1900,100
1431442392,4.1800,4.1800,4.1800,4.1800,100
1431442448,4.1900,4.1900,4.1800,4.1800,2200
1431442523,4.1800,4.1800,4.1800,4.1800,500
1431442576,4.1900,4.1900,4.1800,4.1800,400
1431442659,4.1900,4.1900,4.1900,4.1900,100
1431442718,4.2000,4.2000,4.1959,4.1959,200
1431442752,4.1820,4.1820,4.1820,4.1820,200
1431442954,4.1950,4.2000,4.1900,4.1900,1200
1431443047,4.2000,4.2000,4.2000,4.2000,100
1431443152,4.2000,4.2050,4.1950,4.2000,3900
1431443206,4.2050,4.2100,4.2050,4.2100,500
1431443339,4.2100,4.2200,4.2100,4.2200,600
1431443378,4.2000,4.2200,4.2000,4.2200,900
1431443629,4.1950,4.2050,4.1950,4.2050,600
1431444329,4.2000,4.2000,4.2000,4.2000,200
1431444371,4.2000,4.2000,4.2000,4.2000,100
1431444439,4.2100,4.2100,4.2000,4.2000,4700
1431444503,4.2100,4.2100,4.2100,4.2100,100
1431444576,4.2100,4.2100,4.2100,4.2100,100
1431444684,4.2100,4.2100,4.2100,4.2100,100
1431444894,4.2000,4.2100,4.2000,4.2100,400
1431444933,4.2300,4.2300,4.2100,4.2100,200
1431445001,4.2300,4.2300,4.2250,4.2250,200
1431445068,4.2300,4.2300,4.2200,4.2200,5000
1431445196,4.2250,4.2250,4.2200,4.2200,3900
1431445240,4.2100,4.2200,4.2100,4.2200,3700
1431445364,4.2200,4.2200,4.2200,4.2200,100
1431445499,4.2200,4.2200,4.2100,4.2100,900
1431445500,4.2150,4.2150,4.2150,4.2150,200
1431445650,4.2200,4.2200,4.2200,4.2200,1400
1431445810,4.2300,4.2300,4.2300,4.2300,100
1431445885,4.2300,4.2300,4.2300,4.2300,100
1431445960,4.2300,4.2300,4.2300,4.2300,100
1431446035,4.2300,4.2300,4.2200,4.2200,200
1431446110,4.2300,4.2300,4.2300,4.2300,100
1431446194,4.2200,4.2250,4.2200,4.2250,2000
1431446334,4.2150,4.2200,4.2150,4.2200,3300
1431446519,4.2000,4.2100,4.1800,4.2100,2700
1431446542,4.1900,4.1900,4.1900,4.1900,700
1431446785,4.2000,4.2000,4.2000,4.2000,100
1431446937,4.1800,4.1900,4.1800,4.1900,1000
1431446967,4.1800,4.1800,4.1750,4.1750,300
1431447053,4.1800,4.1800,4.1800,4.1800,1900
1431447353,4.1900,4.1900,4.1900,4.1900,100
1431447374,4.1950,4.1950,4.1950,4.1950,100
1431447446,4.2100,4.2100,4.2100,4.2100,100
1431447610,4.2150,4.2150,4.2150,4.2150,200
1431447675,4.2000,4.2100,4.2000,4.2100,300
1431447949,4.2100,4.2100,4.2100,4.2100,100
1431448003,4.2100,4.2100,4.2100,4.2100,100
1431448136,4.2000,4.2100,4.2000,4.2100,300
1431448178,4.2000,4.2000,4.1900,4.1900,900
1431448299,4.2000,4.2000,4.2000,4.2000,600
1431448430,4.2100,4.2100,4.1966,4.1966,4400
1431448490,4.2100,4.2100,4.2100,4.2100,100
1431448732,4.2100,4.2100,4.2100,4.2100,100
1431448899,4.2100,4.2100,4.2100,4.2100,100
1431449024,4.1800,4.2050,4.1800,4.2000,1100
1431449127,4.1900,4.1900,4.1800,4.1800,800
1431449199,4.2000,4.2000,4.1900,4.1900,200
1431449512,4.1900,4.1900,4.1900,4.1900,600
1431449799,4.2000,4.2000,4.2000,4.2000,100
1431449855,4.2000,4.2000,4.2000,4.2000,100
1431449995,4.2000,4.2000,4.2000,4.2000,300
1431450052,4.1800,4.1900,4.1800,4.1900,500
1431450264,4.1600,4.1650,4.1600,4.1600,800
1431450337,4.1610,4.1610,4.1610,4.1610,2000
1431450477,4.1650,4.1690,4.1650,4.1690,200
1431450515,4.1700,4.1700,4.1700,4.1700,1100
1431450600,4.1800,4.1800,4.1800,4.1800,400
1431450700,4.1900,4.1900,4.1900,4.1900,100
1431450764,4.1900,4.1900,4.1900,4.1900,200
1431450793,4.1810,4.1810,4.1810,4.1810,100
1431450992,4.1900,4.1900,4.1800,4.1800,1300
1431451022,4.1800,4.1800,4.1800,4.1800,100
1431451095,4.1800,4.1800,4.1800,4.1800,200
1431451177,4.1900,4.1900,4.1900,4.1900,100
1431451342,4.1700,4.1700,4.1700,4.1700,700
1431451521,4.1700,4.1700,4.1700,4.1700,100
1431451796,4.1800,4.1800,4.1800,4.1800,100
1431451919,4.1700,4.1750,4.1700,4.1700,2100
1431451962,4.1700,4.1700,4.1700,4.1700,100
1431451997,4.1700,4.1700,4.1700,4.1700,300
1431452261,4.1650,4.1650,4.1650,4.1650,200
1431452381,4.1600,4.1600,4.1600,4.1600,100
1431452425,4.1600,4.1600,4.1600,4.1600,400
1431452466,4.1500,4.1500,4.1500,4.1500,100
1431452744,4.1600,4.1600,4.1600,4.1600,100
1431452861,4.1700,4.1700,4.1700,4.1700,100
1431452982,4.1700,4.1700,4.1700,4.1700,100
1431453288,4.1700,4.1700,4.1700,4.1700,1700
1431453356,4.1500,4.1600,4.1500,4.1600,200
1431453360,4.1600,4.1600,4.1600,4.1600,100
1431453427,4.1550,4.1550,4.1550,4.1550,100
1431453521,4.1500,4.1500,4.1500,4.1500,200
1431453616,4.1400,4.1450,4.1400,4.1410,1200
1431453737,4.1400,4.1400,4.1400,4.1400,600
1431453826,4.1400,4.1400,4.1400,4.1400,100
1431453875,4.1400,4.1400,4.1400,4.1400,100
1431453912,4.1300,4.1350,4.1300,4.1300,300
1431454012,4.1250,4.1250,4.1250,4.1250,100
1431454250,4.1200,4.1250,4.1200,4.1200,500
1431454377,4.1100,4.1100,4.1100,4.1100,100
1431454435,4.1100,4.1100,4.1100,4.1100,700
1431454460,4.1100,4.1100,4.1100,4.1100,200
1431454527,4.1000,4.1000,4.1000,4.1000,100
1431454617,4.1100,4.1150,4.1100,4.1100,2900
1431454640,4.1150,4.1150,4.1150,4.1150,100
1431454739,4.1100,4.1100,4.1100,4.1100,100
1431454778,4.1100,4.1100,4.1100,4.1100,100
1431454811,4.1100,4.1100,4.1100,4.1100,200
1431454880,4.1100,4.1100,4.1100,4.1100,200
1431455025,4.1200,4.1200,4.1150,4.1150,200
1431455159,4.1100,4.1200,4.1100,4.1200,300
1431455219,4.1150,4.1150,4.1100,4.1150,500
1431455398,4.1175,4.1175,4.1175,4.1175,3000
1431455430,4.1100,4.1100,4.1100,4.1100,3000
1431455464,4.1100,4.1150,4.1100,4.1150,700
1431455627,4.1100,4.1200,4.1100,4.1200,300
1431455732,4.1200,4.1200,4.1200,4.1200,400
1431455853,4.1100,4.1150,4.1100,4.1150,800
1431455962,4.1100,4.1150,4.1100,4.1150,200
1431456015,4.1200,4.1200,4.1190,4.1200,1100
1431456135,4.1200,4.1200,4.1200,4.1200,100
1431456230,4.1200,4.1200,4.1200,4.1200,1400
1431456255,4.1200,4.1200,4.1200,4.1200,100
1431456358,4.1200,4.1200,4.1200,4.1200,100
1431456375,4.1200,4.1200,4.1200,4.1200,100
1431456448,4.1190,4.1200,4.1190,4.1200,1000
1431456496,4.1200,4.1200,4.1200,4.1200,100
1431456582,4.1200,4.1200,4.1200,4.1200,200
1431456652,4.1100,4.1200,4.1100,4.1200,300
1431456777,4.1100,4.1200,4.1100,4.1200,1500
1431456780,4.1100,4.1150,4.1100,4.1150,500
1431456944,4.1099,4.1100,4.1050,4.1050,400
1431457042,4.1050,4.1050,4.1050,4.1050,300
1431457093,4.1000,4.1000,4.1000,4.1000,1100
1431457246,4.1100,4.1100,4.1100,4.1100,100
1431457274,4.1000,4.1000,4.1000,4.1000,100
1431457496,4.1050,4.1050,4.1050,4.1050,100
1431457543,4.1100,4.1100,4.1100,4.1100,100
1431457595,4.1100,4.1100,4.1100,4.1100,100
1431457669,4.1000,4.1050,4.1000,4.1050,800
1431457909,4.1000,4.1000,4.1000,4.1000,500
1431457932,4.0900,4.0900,4.0900,4.0900,700
1431458098,4.0975,4.1000,4.0975,4.1000,3200
1431458158,4.1000,4.1000,4.0900,4.1000,2500
1431458189,4.1000,4.1000,4.1000,4.1000,200
1431458254,4.0950,4.1000,4.0950,4.1000,300
1431458312,4.1000,4.1000,4.1000,4.1000,300
1431458447,4.1100,4.1100,4.1035,4.1035,600
1431458491,4.1100,4.1100,4.1100,4.1100,200
1431458673,4.1100,4.1100,4.1100,4.1100,100
1431458883,4.1100,4.1100,4.1100,4.1100,100
1431458963,4.1000,4.1000,4.1000,4.1000,1300
1431459024,4.1000,4.1000,4.1000,4.1000,300
1431459099,4.0950,4.1000,4.0900,4.1000,700
1431459177,4.0984,4.0984,4.0984,4.0984,100
1431459207,4.1000,4.1000,4.1000,4.1000,1000
1431459249,4.1084,4.1084,4.1050,4.1050,900
1431459338,4.1100,4.1100,4.1100,4.1100,100
1431459391,4.0984,4.1000,4.0984,4.1000,600
1431459472,4.1000,4.1000,4.0900,4.0900,300
1431459512,4.1000,4.1000,4.0984,4.0984,1300
1431459595,4.1000,4.1000,4.0984,4.0984,200
1431459658,4.0900,4.1000,4.0900,4.1000,800
1431459711,4.0850,4.0900,4.0850,4.0900,1000
1431459760,4.0900,4.0900,4.0884,4.0884,1900
1431459819,4.0984,4.0984,4.0900,4.0900,500
1431459885,4.0800,4.0950,4.0700,4.0900,4100
1431459926,4.0800,4.0800,4.0800,4.0800,400
1431459997,4.0800,4.0800,4.0800,4.0800,400
1431460044,4.0800,4.0800,4.0800,4.0800,100
1431460125,4.0784,4.0784,4.0784,4.0784,100
1431460170,4.0784,4.0784,4.0784,4.0784,200
1431460212,4.0800,4.0800,4.0800,4.0800,200
1431460421,4.0750,4.0750,4.0750,4.0750,800
1431460444,4.0700,4.0800,4.0700,4.0800,1500
1431460550,4.0800,4.0800,4.0800,4.0800,200
1431460590,4.0800,4.0800,4.0800,4.0800,100
1431460670,4.0800,4.0800,4.0800,4.0800,1800
1431460682,4.0700,4.0700,4.0700,4.0700,1200
1431460740,4.0700,4.0750,4.0600,4.0700,4700
1431460780,4.0650,4.0650,4.0650,4.0650,0
1431460800,4.0700,4.0700,4.0700,4.0700,1100

File: TGA_1431549179408.csv
uri:/instrument/1.0/TGA/chartdata;type=quote;range=1d/csv
ticker:tga
Company-Name:Transglobe Energy Corp
Exchange-Name:NMS
unit:MIN
timezone:EDT
currency:USD
gmtoffset:-14400
previous_close:4.0700
Timestamp:1431523800,1431547200
labels:1431525600,1431529200,1431532800,1431536400,1431540000,1431543600,1431547200
values:Timestamp,close,high,low,open,volume
close:4.0675,4.2100
high:4.0675,4.2200
low:4.0400,4.2100
open:4.0600,4.2200
volume:0,36200
1431523828,4.0800,4.1000,4.0400,4.0600,36200
1431523938,4.1200,4.1250,4.1200,4.1200,9800
1431523996,4.1247,4.1247,4.1200,4.1200,700
1431524128,4.1200,4.1200,4.1200,4.1200,400
1431524392,4.1600,4.1600,4.1200,4.1200,500
1431524482,4.1600,4.1600,4.1600,4.1600,200
1431524669,4.1600,4.1600,4.1600,4.1600,500
1431524740,4.1700,4.1700,4.1700,4.1700,100
1431524928,4.1500,4.1700,4.1500,4.1625,7300
1431525219,4.1560,4.1700,4.1560,4.1700,3200
1431525254,4.1510,4.1600,4.1510,4.1600,2600
1431525347,4.1560,4.1560,4.1560,4.1560,3400
1431525450,4.1700,4.1700,4.1700,4.1700,700
1431525588,4.1700,4.1700,4.1700,4.1700,100
1431525615,4.1650,4.1650,4.1650,4.1650,100
1431525693,4.1700,4.1755,4.1700,4.1700,800
1431525723,4.1800,4.1800,4.1800,4.1800,100
1431525830,4.1600,4.1800,4.1600,4.1800,600
1431525847,4.1700,4.1700,4.1700,4.1700,100
1431525919,4.1800,4.1800,4.1800,4.1800,200
1431525994,4.1800,4.1800,4.1800,4.1800,100
1431526054,4.1800,4.1800,4.1800,4.1800,100
1431526114,4.1800,4.1800,4.1800,4.1800,100
1431526174,4.1800,4.1800,4.1800,4.1800,100
1431526234,4.1800,4.1850,4.1800,4.1800,4100
1431526294,4.2000,4.2000,4.2000,4.2000,100
1431526354,4.2000,4.2000,4.2000,4.2000,100
1431526414,4.2000,4.2000,4.2000,4.2000,400
1431526493,4.2000,4.2000,4.2000,4.2000,300
1431526552,4.2000,4.2100,4.2000,4.2000,800
1431526634,4.2100,4.2100,4.2100,4.2100,400
1431526713,4.2000,4.2200,4.2000,4.2200,800
1431526756,4.2050,4.2050,4.2050,4.2050,100
1431526816,4.2050,4.2050,4.2050,4.2050,200
1431526881,4.2050,4.2050,4.2050,4.2050,100
1431526977,4.2100,4.2100,4.2100,4.2100,100
1431526985,4.2100,4.2100,4.2100,4.2100,100
1431527134,4.2000,4.2000,4.2000,4.2000,200
1431527287,4.1950,4.1950,4.1900,4.1900,200
1431527376,4.1800,4.1800,4.1800,4.1800,100
1431527512,4.2000,4.2000,4.2000,4.2000,700
1431527586,4.1950,4.1950,4.1950,4.1950,100
1431527649,4.1750,4.1750,4.1750,4.1750,200
1431527705,4.1600,4.1700,4.1600,4.1700,300
1431527816,4.1782,4.1782,4.1700,4.1700,200
1431527834,4.1599,4.1599,4.1599,4.1599,100
1431528223,4.1568,4.1568,4.1568,4.1568,4000
1431528271,4.1700,4.1700,4.1700,4.1700,100
1431528322,4.1650,4.1700,4.1600,4.1700,400
1431528396,4.1900,4.1900,4.1700,4.1700,600
1431528464,4.1850,4.1900,4.1850,4.1900,2400
1431528570,4.1700,4.1800,4.1600,4.1800,2200
1431528724,4.1500,4.1500,4.1500,4.1500,100
1431528945,4.1500,4.1600,4.1500,4.1600,400
1431529131,4.1550,4.1550,4.1550,4.1550,400
1431529270,4.1500,4.1500,4.1400,4.1500,500
1431529373,4.1400,4.1500,4.1400,4.1500,1900
1431529451,4.1450,4.1450,4.1450,4.1450,200
1431529656,4.1450,4.1450,4.1450,4.1450,100
1431529690,4.1500,4.1500,4.1500,4.1500,1300
1431529955,4.1500,4.1500,4.1500,4.1500,200
1431530000,4.1500,4.1500,4.1500,4.1500,400
1431530156,4.1550,4.1550,4.1550,4.1550,200
1431530317,4.1600,4.1600,4.1600,4.1600,100
1431530359,4.1600,4.1600,4.1600,4.1600,100
1431530443,4.1700,4.1700,4.1600,4.1600,900
1431530497,4.1650,4.1650,4.1650,4.1650,100
1431530525,4.1750,4.1750,4.1700,4.1700,2400
1431530618,4.1800,4.1800,4.1800,4.1800,100
1431530916,4.1900,4.1900,4.1750,4.1800,2100
1431531030,4.1900,4.1900,4.1900,4.1900,100
1431531143,4.1900,4.1900,4.1900,4.1900,100
1431531399,4.1900,4.1900,4.1900,4.1900,100
1431531451,4.1900,4.1900,4.1900,4.1900,200
1431531774,4.1900,4.1900,4.1900,4.1900,100
1431531793,4.2000,4.2000,4.1900,4.1900,700
1431532446,4.2000,4.2000,4.1900,4.1900,900
1431532559,4.1950,4.1950,4.1950,4.1950,200
1431532590,4.1950,4.1950,4.1900,4.1900,400
1431532626,4.1900,4.1900,4.1900,4.1900,700
1431532731,4.1900,4.1900,4.1900,4.1900,200
1431532900,4.1900,4.1900,4.1900,4.1900,100
1431532974,4.1850,4.1850,4.1800,4.1800,300
1431533003,4.1850,4.1850,4.1850,4.1850,100
1431533095,4.1900,4.1900,4.1850,4.1850,200
1431533151,4.1800,4.1800,4.1800,4.1800,200
1431533204,4.1900,4.1900,4.1900,4.1900,300
1431533237,4.1900,4.1900,4.1900,4.1900,400
1431533620,4.1800,4.1900,4.1800,4.1900,1200
1431533887,4.1700,4.1700,4.1600,4.1600,200
1431533986,4.1600,4.1600,4.1600,4.1600,100
1431534298,4.1650,4.1650,4.1600,4.1600,1400
1431534359,4.1500,4.1650,4.1500,4.1600,400
1431534601,4.1600,4.1600,4.1600,4.1600,500
1431534853,4.1550,4.1550,4.1500,4.1550,500
1431534918,4.1500,4.1500,4.1500,4.1500,100
1431535017,4.1600,4.1600,4.1600,4.1600,100
1431535477,4.1600,4.1600,4.1600,4.1600,100
1431535533,4.1600,4.1600,4.1600,4.1600,100
1431535585,4.1600,4.1600,4.1600,4.1600,100
1431535640,4.1600,4.1600,4.1500,4.1500,200
1431535695,4.1600,4.1600,4.1600,4.1600,500
1431535773,4.1650,4.1650,4.1600,4.1600,200
1431535914,4.1700,4.1700,4.1700,4.1700,100
1431535934,4.1700,4.1700,4.1700,4.1700,1000
1431536242,4.1800,4.1800,4.1800,4.1800,100
1431536298,4.1800,4.1800,4.1800,4.1800,200
1431536394,4.1900,4.1900,4.1900,4.1900,600
1431536450,4.1900,4.1950,4.1900,4.1950,200
1431536575,4.1950,4.1950,4.1900,4.1900,500
1431536616,4.1950,4.1950,4.1900,4.1900,200
1431536714,4.1950,4.1950,4.1950,4.1950,200
1431536761,4.1950,4.1950,4.1950,4.1950,100
1431536878,4.1900,4.1950,4.1900,4.1950,1800
1431536932,4.1850,4.1850,4.1850,4.1850,100
1431536958,4.1900,4.1900,4.1900,4.1900,200
1431537060,4.1900,4.1900,4.1900,4.1900,100
1431537161,4.2000,4.2000,4.1900,4.1900,700
1431537359,4.2000,4.2000,4.2000,4.2000,100
1431537409,4.2000,4.2000,4.2000,4.2000,3700
1431537449,4.2000,4.2050,4.1900,4.2000,3100
1431537526,4.2000,4.2100,4.1900,4.2000,5500
1431537562,4.1899,4.1901,4.1899,4.1900,3600
1431537658,4.1850,4.1850,4.1850,4.1850,200
1431537710,4.1800,4.1800,4.1800,4.1800,300
1431537832,4.1800,4.1800,4.1800,4.1800,200
1431537913,4.1800,4.1800,4.1800,4.1800,300
1431538350,4.1900,4.1900,4.1900,4.1900,100
1431538455,4.1900,4.1900,4.1900,4.1900,100
1431538545,4.1900,4.1900,4.1900,4.1900,100
1431538614,4.1800,4.1850,4.1800,4.1800,300
1431538670,4.1850,4.1850,4.1850,4.1850,200
1431538770,4.1800,4.1900,4.1800,4.1900,3500
1431538845,4.1800,4.1800,4.1800,4.1800,100
1431538876,4.1800,4.1800,4.1800,4.1800,900
1431539106,4.1900,4.1900,4.1900,4.1900,100
1431539205,4.1800,4.1800,4.1800,4.1800,200
1431539295,4.1750,4.1750,4.1700,4.1700,200
1431539374,4.1700,4.1800,4.1700,4.1800,400
1431539493,4.1700,4.1700,4.1700,4.1700,100
1431539553,4.1800,4.1800,4.1800,4.1800,300
1431539745,4.1800,4.1800,4.1800,4.1800,200
1431539788,4.1800,4.1800,4.1700,4.1800,2400
1431539926,4.1800,4.1800,4.1800,4.1800,100
1431540049,4.1900,4.1900,4.1900,4.1900,200
1431540136,4.1900,4.1900,4.1900,4.1900,100
1431540192,4.1850,4.1850,4.1800,4.1800,200
1431540248,4.1850,4.1850,4.1800,4.1850,300
1431540510,4.1900,4.1900,4.1900,4.1900,300
1431540548,4.1900,4.1900,4.1900,4.1900,1500
1431540654,4.2000,4.2000,4.2000,4.2000,100
1431540700,4.2000,4.2000,4.2000,4.2000,100
1431540775,4.1950,4.2000,4.1900,4.2000,5100
1431540811,4.1925,4.1925,4.1925,4.1925,2100
1431540951,4.1900,4.2000,4.1900,4.2000,200
1431540994,4.1950,4.1950,4.1950,4.1950,400
1431541100,4.2000,4.2000,4.2000,4.2000,200
1431541171,4.1900,4.1950,4.1900,4.1950,300
1431541217,4.2000,4.2000,4.2000,4.2000,100
1431541292,4.1900,4.1950,4.1900,4.1900,1400
1431541359,4.1900,4.1950,4.1900,4.1950,1600
1431541399,4.1800,4.1800,4.1800,4.1800,100
1431541450,4.1700,4.1800,4.1700,4.1800,800
1431541630,4.1700,4.1700,4.1700,4.1700,500
1431541684,4.1800,4.1800,4.1800,4.1800,100
1431541889,4.1800,4.1800,4.1800,4.1800,100
1431541968,4.1700,4.1750,4.1700,4.1700,1500
1431542029,4.1800,4.1800,4.1700,4.1700,800
1431542153,4.1750,4.1750,4.1700,4.1700,400
1431542186,4.1700,4.1750,4.1700,4.1700,400
1431542307,4.1700,4.1700,4.1700,4.1700,1500
1431542638,4.1700,4.1700,4.1700,4.1700,100
1431542747,4.1750,4.1750,4.1700,4.1700,200
1431542857,4.1700,4.1700,4.1700,4.1700,100
1431542908,4.1700,4.1700,4.1600,4.1700,1700
1431542947,4.1650,4.1650,4.1650,4.1650,100
1431543110,4.1700,4.1700,4.1700,4.1700,100
1431543217,4.1700,4.1700,4.1700,4.1700,200
1431543292,4.1200,4.1650,4.1200,4.1600,3100
1431543605,4.1250,4.1300,4.1250,4.1300,200
1431543771,4.1275,4.1275,4.1275,4.1275,100
1431543831,4.1299,4.1300,4.1299,4.1300,3100
1431543893,4.1250,4.1250,4.1200,4.1250,3300
1431543957,4.1200,4.1200,4.1200,4.1200,700
1431543979,4.0900,4.1200,4.0900,4.1200,8200
1431544068,4.1000,4.1000,4.0900,4.0950,8300
1431544364,4.1000,4.1000,4.0950,4.0950,300
1431544394,4.0950,4.0950,4.0950,4.0950,100
1431544490,4.1000,4.1000,4.0950,4.1000,800
1431544551,4.1000,4.1000,4.1000,4.1000,100
1431544611,4.1000,4.1000,4.0975,4.0975,3200
1431544679,4.0900,4.1000,4.0900,4.1000,6500
1431544774,4.0900,4.1000,4.0900,4.1000,3500
1431544808,4.0900,4.0900,4.0900,4.0900,100
1431544891,4.0900,4.0900,4.0900,4.0900,100
1431544978,4.0900,4.0900,4.0900,4.0900,200
1431545027,4.0900,4.0900,4.0900,4.0900,200
1431545093,4.0900,4.0900,4.0850,4.0900,900
1431545133,4.0900,4.0900,4.0800,4.0800,3700
1431545210,4.0900,4.0900,4.0900,4.0900,200
1431545247,4.0900,4.0900,4.0900,4.0900,400
1431545325,4.1000,4.1000,4.0900,4.0900,1400
1431545361,4.1000,4.1000,4.1000,4.1000,100
1431545455,4.0900,4.1000,4.0800,4.1000,3800
1431545519,4.0800,4.0800,4.0700,4.0800,3700
1431545552,4.0675,4.0675,4.0600,4.0600,3200
1431545817,4.0700,4.0700,4.0700,4.0700,500
1431545821,4.0800,4.0800,4.0800,4.0800,100
1431545967,4.0900,4.0900,4.0900,4.0900,300
1431546001,4.1000,4.1000,4.1000,4.1000,100
1431546117,4.1100,4.1100,4.1100,4.1100,500
1431546157,4.1100,4.1100,4.1100,4.1100,100
1431546217,4.1200,4.1200,4.1200,4.1200,200
1431546263,4.1200,4.1200,4.1200,4.1200,100
1431546349,4.1150,4.1200,4.1100,4.1200,1900
1431546398,4.1300,4.1300,4.1200,4.1200,1000
1431546458,4.1300,4.1300,4.1200,4.1300,300
1431546506,4.1200,4.1300,4.1200,4.1200,900
1431546541,4.1200,4.1200,4.1200,4.1200,400
1431546622,4.1300,4.1300,4.1300,4.1300,700
1431546683,4.1300,4.1300,4.1300,4.1300,100
1431546777,4.1250,4.1300,4.1250,4.1300,900
1431546834,4.1250,4.1300,4.1200,4.1300,8300
1431546882,4.1200,4.1300,4.1200,4.1300,600
1431546939,4.1200,4.1300,4.1100,4.1300,4600
1431546990,4.1200,4.1200,4.1200,4.1200,1100
1431547033,4.1200,4.1200,4.1200,4.1200,100
1431547183,4.1200,4.1200,4.1200,4.1200,0
1431547199,4.1100,4.1200,4.1100,4.1200,4300
1431547200,4.1100,4.1100,4.1100,4.1100,100